
   RA (deg)    DE (deg) U2mag eRA eDE     epRA     epDC    pm RA pmRAcD   pmDE epmR epmD UCAC2 ID
 52.3799992   6.3827972 13.41  31  35 2000.435 2000.204     -9.6   -9.5  -21.1  6.1  6.1 33868028
 52.3806000   6.2905269 13.70  38  37 2000.062 2000.111     -1.7   -1.7  -12.6  6.1  6.1 33868029
 52.3816186   6.3852178 12.51  20  20 2000.212 2000.187     -3.2   -3.2  -13.3  3.0  2.9 33868030
 52.3867169   6.3586394 16.18  37 130 2000.111 1992.127    -11.9  -11.8  -18.1  6.1  7.5 33868031
 52.3873681   6.4868531  9.01  15  19 1993.053 1992.104     10.4   10.3   11.4  1.1  1.3 33868032
 52.3921550   6.3449761 13.12  35  37 2000.204 2000.111     -5.3   -5.3   -7.5  6.1  6.1 33868033
 52.4018258   6.4037867 15.61  32  82 2000.366 1996.563     -4.2   -4.2   -6.8  6.1  6.6 33868034
 52.4101131   6.1798161 11.98  31  33 2000.435 2000.329      6.1    6.1  -13.4  6.1  6.1 33868035
 52.4114644   6.1304017 15.25  36  86 2000.159 1996.150      6.6    6.6   -4.6  6.1  6.7 33868036
 52.4139753   6.0946664 11.40  20  27 1995.924 1993.183      6.8    6.8   -3.8  1.3  1.4 33868037
 52.4257156   6.2257997 15.41  78  31 1996.960 2000.425    -13.5  -13.4  -31.9  6.6  6.1 33868038
 52.4266697   6.2693136 11.96  20  22 2000.212 2000.049      5.1    5.1  -13.1  3.0  2.9 33868039
 52.4290978   6.4480231 13.25  36  33 2000.159 2000.329      7.4    7.4  -19.9  6.1  6.1 33868040
 52.4404786   6.1449856 15.51  44 103 1999.657 1994.657     -1.0   -1.0  -11.9  6.2  7.0 33868041
 52.4435547   6.4638047 15.42  55 148 1998.881 1990.537    -24.9  -24.7  -15.7  6.3  7.9 33868042
 52.4521431   6.1256175 14.61  98  67 1995.085 1997.924      3.2    3.2  -10.9  6.9  6.4 33868043
 52.4555981   6.0796586 14.13  38  47 2000.052 1999.461     -1.5   -1.5   -9.7  6.1  6.2 33868044
 52.4596719   6.3485050 15.04  31  42 2000.435 1999.847     -4.5   -4.5   -7.8  6.1  6.2 33868045
 52.4708058   6.4200122 15.08  65  41 1998.016 1999.894    -10.4  -10.3   -8.3  6.4  6.2 33868046
 52.4758742   6.2090603 15.77  44  31 1999.657 2000.392      7.4    7.4   -6.0  6.2  6.1 33868047
 52.4789044   6.2491978 14.59  31  31 2000.435 2000.402     11.7   11.6  -21.7  6.1  6.1 33868048
 52.4920244   6.1006489 15.12  94  78 1995.404 1996.960      4.7    4.7   -7.5  6.8  6.6 33868049
 52.5009792   6.2526194 14.67  31  47 2000.435 1999.471     -1.4   -1.4   -3.7  6.1  6.2 33868050
 52.5172922   6.1508867 15.22  86  32 1996.142 2000.356      7.4    7.4   -6.9  6.7  6.1 33868051
 52.5172978   6.3750072 15.15  50  62 1999.260 1998.381      1.0    1.0  -20.1  6.2  6.4 33868052
 52.5318475   6.4075953 10.79  27  23 1999.189 1999.753      8.3    8.2  -10.4  2.9  2.8 33868053
 52.5361772   6.1316428 15.13  31  31 2000.425 2000.425      3.0    3.0  -22.1  6.1  6.1 33868054
 52.5387625   6.1542744 15.34  45  71 1999.603 1997.557      9.8    9.7   -8.4  6.2  6.5 33868055
 52.5434092   6.2308228 14.15  31  38 2000.425 2000.052      1.7    1.7   -7.2  6.1  6.1 33868056
 52.5441069   6.1255997 14.84  44  45 1999.666 1999.603    -15.0  -14.9  -11.4  6.2  6.2 33868057
 52.5446017   6.2649389 15.92  47  31 1999.461 2000.425     -5.7   -5.7  -15.6  6.2  6.1 33868058
 52.5463372   6.2276992 13.65  31  35 2000.425 2000.194     -1.2   -1.2  -13.0  6.1  6.1 33868059
 52.5516011   6.4203131 12.72  36  37 2000.159 2000.111      4.2    4.2   -1.5  6.1  6.1 33868060
 52.5611239   6.4927325 15.72  31  31 2000.435 2000.435     -1.9   -1.9  -14.2  6.1  6.1 33868061
 52.5627594   6.4478417 15.06  31  31 2000.435 2000.435      5.1    5.1  -13.4  6.1  6.1 33868062
 52.5818489   6.3189036 14.14  32  35 2000.366 2000.204      0.0    0.0  -15.0  6.1  6.1 33868063
 52.5918175   6.1143136 14.41  41  70 1999.894 1997.644      9.8    9.7   -9.4  6.2  6.5 33868064
 52.5931414   6.3160519 13.89  46  35 1999.528 2000.194    -12.8  -12.7  -16.6  6.2  6.1 33868065
 52.6026044   6.1670350 14.93  38  67 2000.052 1997.924      1.5    1.5   -7.0  6.1  6.4 33868066
 52.6097211   6.0962592 15.08  31  31 2000.425 2000.425    -15.2  -15.1  -15.9  6.1  6.1 33868067
 52.6189103   6.1749850 13.92  37  38 2000.102 2000.052     -5.9   -5.9  -22.2  6.1  6.1 33868068
 52.6381394   6.4217275 14.96  31  76 2000.435 1997.069      6.1    6.1  -12.4  6.1  6.6 33868069
 52.6384744   6.3275808 14.81  31  31 2000.425 2000.425     14.3   14.2   -8.3  6.1  6.1 33868070
 52.6403844   6.3967369 15.42  31  33 2000.425 2000.279     -8.0   -8.0  -14.4  6.1  6.1 33868071
 52.6560861   6.1662011 13.82  31  31 2000.435 2000.435      1.2    1.2  -13.0  6.1  6.1 33868072
 52.6611683   6.3242397 12.62  31  31 2000.435 2000.435      4.2    4.2   -0.4  6.1  6.1 33868073
 52.6633608   6.1956175 11.48  21  17 2000.277 1999.409     21.5   21.4   -1.4  3.3  1.5 33868074
 52.6652756   6.3714569 11.74  21  21 2000.454 2000.429    -23.3  -23.2  -74.4  3.5  3.3 33868075
 52.6687644   6.2569814 15.26  54  31 1998.959 2000.435      1.9    1.9  -16.8  6.3  6.1 33868076
 52.6799389   6.1118989 15.98  99  33 1994.978 2000.319     -5.4   -5.4  -12.3  6.9  6.1 33868077
 52.7043989   6.2400281 10.91  17  17 1998.923 1998.859      0.0    0.0   -7.6  1.5  1.5 33868078
 52.7417508   6.3580658 13.22  31  46 2000.435 1999.537     -8.4   -8.3   -7.2  6.1  6.2 33868079
 52.7538000   6.2048186 13.60  34  38 2000.248 2000.062     16.8   16.7  -16.6  6.1  6.1 33868080
 52.7538000   6.4296572 14.42  40  67 1999.958 1997.933     -1.2   -1.2   -9.4  6.2  6.4 33868081
 52.7618731   6.1646131 12.72  33  31 2000.289 2000.435      0.8    0.8  -11.4  6.1  6.1 33868082
 52.7681369   6.0898136 14.78  37  49 2000.102 1999.323      5.7    5.7  -16.2  6.1  6.2 33868083
 52.7751758   6.4485411 15.47  31  45 2000.435 1999.603      2.1    2.1  -14.9  6.1  6.2 33868084
 52.7804239   6.1533811 15.50  82 138 1996.563 1991.418    -12.3  -12.2  -13.3  6.6  7.7 33868085
 52.7923536   6.4358908 14.20  51  38 1999.187 2000.062      5.1    5.1  -15.6  6.3  6.1 33868086
 52.7953286   6.1815208 13.25  31  31 2000.435 2000.435     21.2   21.1   11.4  6.1  6.1 33868087
 52.7958353   6.1204278 14.78  33  64 2000.289 1998.115     -7.5   -7.5   -6.8  6.1  6.4 33868088
 52.7969308   6.3410400 14.72  71  52 1997.557 1999.113      1.9    1.9   -0.4  6.5  6.3 33868089
 52.7976456   6.4207425 15.74  57  42 1998.719 1999.788      2.1    2.1  -13.0  6.3  6.2 33868090
 52.8019097   6.2921000 15.01  42  55 1999.837 1998.871      5.1    5.1   -7.2  6.2  6.3 33868091
 52.8020644   6.2042628 15.35  37  50 2000.102 1999.251     -1.7   -1.7  -12.2  6.1  6.2 33868092
 52.8032642   6.0182767 15.06  31  47 2000.435 1999.471      3.6    3.6  -23.8  6.1  6.2 33868093
 52.8035342   6.2430950 14.82  33  34 2000.329 2000.248     -5.1   -5.1  -14.3  6.1  6.1 33868094
 52.8083786   6.2329472 15.19  31  67 2000.435 1997.933     -0.9   -0.9   -8.4  6.1  6.4 33868095
 52.8126614   6.0065914 15.27  32  35 2000.356 2000.194      7.4    7.4  -18.2  6.1  6.1 33868096
 52.8302417   6.1589908 14.63  40  46 1999.709 1999.289     36.3   36.1   -1.6  5.7  5.7 33868097
 52.8368869   6.3780050 13.82  31  33 2000.435 2000.329     -6.3   -6.3  -11.0  6.1  6.1 33868098
 52.8507422   6.3006375 13.82  31  31 2000.435 2000.435     -7.1   -7.1  -23.2  6.1  6.1 33868099
 52.8509711   6.0200806 12.77  31  31 2000.435 2000.435     -7.7   -7.7   -6.3  6.1  6.1 33868100
 52.8716225   6.3361875 15.50  29  44 2000.413 1999.436      3.8    3.8  -13.2  5.6  5.7 33868101
 52.8717483   6.3445508 11.95  23  22 2000.010 2000.049      4.4    4.4   -2.3  3.0  2.9 33868102
 52.8811478   6.3453117 11.99  20  21 2000.212 2000.120      1.4    1.4  -12.4  3.0  2.9 33868103
 52.8815553   6.0978217 13.75  31  31 2000.435 2000.435      1.9    1.9  -15.4  6.1  6.1 33868104
 52.8880403   6.3882975 12.50  31  31 2000.435 2000.435    -18.0  -17.9  -11.4  6.1  6.1 33868105
 52.8969758   6.3802292 14.94  31  34 2000.435 2000.248     17.4   17.3   15.4  6.1  6.1 33868106
 52.9049144   6.4586711 11.15  23  19 2000.088 1998.851      3.8    3.8   -3.3  3.8  1.5 33868107
 52.9272317   6.4277269 14.03  31  31 2000.435 2000.435    -13.7  -13.6  -10.3  6.1  6.1 33868108
 52.9273819   6.1063797 11.18  21  21 2000.458 2000.423     54.5   54.2   -6.4  3.5  3.3 33868109
 52.9274869   6.0532289 11.57  21  20 2000.090 2000.111     -2.9   -2.9   -7.3  3.0  2.9 33868110
 52.9370703   6.4967069 13.37  33  31 2000.289 2000.435     10.8   10.7   -7.5  6.1  6.1 33868111
 52.9529639   6.0864381 14.15  42  31 1999.847 2000.435     -0.3   -0.3   -2.3  6.2  6.1 33868112
 52.9580567   6.0881569 11.54  20  20 2000.215 2000.182      5.9    5.9   13.6  3.0  2.9 33868113
 52.9591681   6.0570639 12.62  31  33 2000.435 2000.289     11.0   10.9   12.7  6.1  6.1 33868114
 52.9806925   6.4258389 10.98  21  23 1999.892 1999.719      7.7    7.7   -9.1  2.9  2.8 33868115
 52.9816133   6.2059250 12.18  31  31 2000.435 2000.435    -20.0  -19.9  -17.8  6.1  6.1 33868116
 52.9848919   6.3113261 13.99  44  40 1999.666 1999.958      8.7    8.6   -4.0  6.2  6.2 33868117
 52.9921625   6.1332144 15.55  34  51 2000.248 1999.187     -9.5   -9.4   -5.7  6.1  6.3 33868118
 52.9981964   6.0314711 12.82  31  31 2000.435 2000.435     -7.1   -7.1   -2.2  6.1  6.1 33868119
 53.0140350   6.0680703 15.41 106  67 1994.343 1997.933      0.3    0.3   -2.8  7.0  6.4 33868120
 53.0165092   6.1195483 14.91  31  31 2000.435 2000.435     -9.0   -8.9  -15.4  6.1  6.1 33868121
 53.0227953   6.1613003 15.93  31  80 2000.435 1996.767     -7.1   -7.1    3.9  6.1  6.6 33868122
 53.0402100   6.4676672 13.62  31  33 2000.435 2000.329      2.3    2.3   -7.4  6.1  6.1 33868123
 53.0474389   6.0256017 14.94  69  38 1997.747 2000.062      0.9    0.9    0.0  6.5  6.1 33868124
 53.0480917   6.0207167 13.12  32  31 2000.366 2000.435    -20.5  -20.4  -21.6  6.1  6.1 33868125
 53.0675431   6.1741297 14.93  37  45 2000.111 1999.603    -26.6  -26.4  -12.6  6.1  6.2 33868126
 53.0748483   6.1714353 13.10  31  31 2000.435 2000.435     14.1   14.0   -8.2  6.1  6.1 33868127
 53.0833931   6.2698806 14.68  42  35 1999.788 2000.204    -25.5  -25.3  -15.9  6.2  6.1 33868128
 52.4241778   6.6157514 10.36  16  16 1996.911 1996.764      3.3    3.3  -25.9  1.2  1.1 34043722
 52.4302078   6.5754575 16.02 103  31 1994.664 2000.402    -10.8  -10.7   -7.6  7.0  6.1 34043723
 52.4766711   6.5042672 12.37  20  20 2000.212 2000.187     -5.6   -5.6  -17.3  3.0  2.9 34043729
 52.4964022   6.6612761 11.58  22  18 2000.307 2000.005     16.1   16.0   -8.6  3.5  2.2 34043733
 52.5366753   6.5922314 14.68  31  50 2000.435 1999.260      0.8    0.8  -13.3  6.1  6.2 34043739
 52.5580619   6.6239269 14.31  31  51 2000.402 1999.187     -7.8   -7.7  -13.5  6.1  6.3 34043743
 52.5623578   6.6012761 15.33  62  63 1998.381 1998.205     -3.5   -3.5  -23.8  6.4  6.4 34043744
 52.5680406   6.6876550 13.83  31  31 2000.435 2000.402     13.2   13.1   -5.8  6.1  6.1 34043745
 52.6107281   6.5310322 14.75  37  31 2000.111 2000.435      2.9    2.9  -12.8  6.1  6.1 34043750
 52.6360947   6.5354108 14.89  31  42 2000.435 1999.847     -3.8   -3.8  -15.8  6.1  6.2 34043754
 52.6399558   6.5909675 15.53  31  45 2000.435 1999.603     -3.3   -3.3  -20.5  6.1  6.2 34043755
 52.6531439   6.6020889 15.07  56  57 1998.801 1998.719     13.5   13.4    0.4  6.3  6.3 34043757
 52.6821136   6.6928694 15.13  82  33 1996.563 2000.329      5.0    5.0   -8.8  6.6  6.1 34043760
 52.6921797   6.6995419 14.61  37  35 2000.111 2000.204      0.2    0.2  -15.1  6.1  6.1 34043761
 52.7332125   6.5007097 13.06  31  31 2000.435 2000.435    -14.3  -14.2  -11.2  6.1  6.1 34043766
 52.7448167   6.5333842 14.32  36  41 2000.159 1999.903     -4.1   -4.1   -2.9  6.1  6.2 34043768
 52.7621708   6.6069283 13.14  35  44 2000.204 1999.666     -5.9   -5.9  -13.7  6.1  6.2 34043770
 52.7699592   6.6872875 14.97  51  51 1999.187 1999.187     18.5   18.4   -5.8  6.3  6.3 34043771
 52.8046750   6.6313692 15.09  78  31 1996.969 2000.435     20.0   19.9   -5.0  6.6  6.1 34043773
 52.8066453   6.5884217 14.48  31  65 2000.435 1998.025     -1.5   -1.5   -6.1  6.1  6.4 34043774
 52.8105514   6.5664333 12.76  20  20 2000.212 2000.187     -4.8   -4.8  -13.3  3.0  2.9 34043776
 52.8294639   6.5539369 12.82  31  31 2000.435 2000.435     -6.0   -6.0   -7.9  6.1  6.1 34043778
 52.8296164   6.6759564 15.57  65  38 1998.025 2000.011     10.1   10.0  -15.0  6.4  6.1 34043779
 52.8604981   6.5123406 15.96  31 202 2000.435 1986.622      0.3    0.3   -7.7  6.1  9.2 34043784
 52.8991881   6.5407800 14.07  31  31 2000.435 2000.435      1.2    1.2  -16.8  6.1  6.1 34043789
 52.9241689   6.5110842 13.13  31  31 2000.435 2000.435      5.6    5.6  -10.7  6.1  6.1 34043791
 52.9293742   6.6903114 15.29  44  62 1999.666 1998.381     16.7   16.6   -7.0  6.2  6.4 34043793
 52.9967628   6.6410075 10.94  20  27 1997.739 1999.540     -7.2   -7.2  -27.8  1.5  3.7 34043805
 53.0436003   6.5781569 14.35  31  38 2000.435 2000.011      3.9    3.9   -7.6  6.1  6.1 34043807
 53.0532494   6.5679258 15.84  54  53 1998.959 1999.037     -1.7   -1.7    1.2  6.3  6.3 34043809
 53.0810575   6.5588494 15.38  31  31 2000.435 2000.435    -10.4  -10.3  -14.9  6.1  6.1 34043816
